* Measurement data measured by REW V5.20
* Source: USB-C to 3.5mm Headphone Jack Adapter, USB-C to 3.5mm Headphone Jack Adapter, 0, volume: 0.663. Timing signal peak level -12.7 dBFS, measurement signal peak level -10.3 dBFS
* Format: 256k Log Swept Sine, 1 sweep at -12.0 dBFS using an acoustic timing reference
* Dated: Mar 27, 2021 9:58:41 AM
* REW Settings:
*  C-weighting compensation: Off
*  Target level: 75.0 dB
* Note: Delay -0.0852 ms (-29 mm, -1.15 in) using estimated IR delay relative to Acoustic reference on USB-C to 3.5mm Headphone Jack Adapter L with no timing offset
* Measurement: Moondrop SSR
* Smoothing: 1/12 octave
* Frequency Step: 1/48 octave
* Start Frequency: 20.300 Hz
*
* Freq(Hz)	SPL(dB)	Phase(degrees)
20.299999	93.289864	-110.5748
20.600000	93.350929	-110.7713
20.900000	93.518776	-111.2454
21.200001	93.715042	-111.7877
21.400000	93.851128	-112.1545
21.799999	94.113464	-112.8389
22.000000	94.232239	-113.1349
22.400000	94.437180	-113.6137
22.700001	94.560745	-113.8811
23.000000	94.661278	-114.1045
23.299999	94.742889	-114.3301
23.600000	94.809830	-114.6037
24.000000	94.882797	-115.0929
24.299999	94.930267	-115.5532
24.700001	94.992157	-116.2506
25.000000	95.043877	-116.7965
25.400000	95.126793	-117.5158
25.799999	95.226929	-118.2159
26.200001	95.337029	-118.9095
26.500000	95.419212	-119.4299
26.900000	95.521133	-120.1122
27.200001	95.590332	-120.6029
27.600000	95.675690	-121.2175
28.000000	95.757751	-121.7913
28.500000	95.859299	-122.4713
29.000000	95.956108	-123.1148
29.500000	96.042229	-123.7074
30.000000	96.113449	-124.2610
30.400000	96.157646	-124.7046
30.700001	96.182869	-125.0475
31.100000	96.208069	-125.5098
31.500000	96.231636	-125.9527
32.000000	96.277939	-126.4611
32.500000	96.357727	-126.9630
33.000000	96.462265	-127.5312
33.500000	96.565033	-128.1582
34.000000	96.646141	-128.7379
34.500000	96.708557	-129.1857
35.000000	96.769623	-129.5448
35.500000	96.840424	-129.9494
36.000000	96.917213	-130.5023
36.500000	96.989822	-131.1959
37.000000	97.052101	-131.9360
37.500000	97.104614	-132.6195
38.200001	97.171967	-133.3768
38.700001	97.225700	-133.7806
39.500000	97.335823	-134.3649
40.000000	97.415031	-134.8168
40.599998	97.502533	-135.4985
41.200001	97.565529	-136.2538
41.799999	97.599037	-136.9554
42.500000	97.609230	-137.6059
43.099998	97.605003	-138.0329
43.700001	97.600304	-138.4039
44.400002	97.611229	-138.8412
45.000000	97.648666	-139.2455
45.500000	97.703339	-139.5987
46.200001	97.804077	-140.0959
46.799999	97.889198	-140.5050
47.500000	97.957489	-140.9705
48.200001	97.979630	-141.4903
48.700001	97.971832	-141.9315
49.400002	97.949936	-142.6198
50.000000	97.947083	-143.1991
50.799999	97.995605	-143.8742
51.500000	98.079391	-144.3755
52.200001	98.172409	-144.8092
53.000000	98.257973	-145.2551
53.799999	98.296829	-145.6727
54.500000	98.291832	-145.9516
55.200001	98.278290	-146.1318
56.000000	98.286095	-146.4082
57.000000	98.316010	-147.1881
58.000000	98.310898	-148.3934
59.000000	98.260056	-149.5642
60.000000	98.254082	-150.1510
60.799999	98.343025	-150.2550
61.500000	98.458199	-150.3243
62.200001	98.556641	-150.4657
63.000000	98.622375	-150.7122
64.000000	98.655266	-151.1532
65.000000	98.673096	-151.6961
66.000000	98.692589	-152.2295
67.000000	98.712074	-152.7376
68.000000	98.735748	-153.2612
69.000000	98.770927	-153.7916
70.000000	98.811775	-154.2949
71.000000	98.843704	-154.7746
72.000000	98.862801	-155.2503
73.000000	98.878456	-155.7239
74.000000	98.898155	-156.1604
75.000000	98.920151	-156.5281
76.199997	98.938766	-156.9082
77.500000	98.949203	-157.3230
78.800003	98.964790	-157.7753
80.000000	98.983925	-158.1880
81.199997	99.001221	-158.6287
82.500000	99.014969	-159.2162
83.800003	99.025505	-159.8522
85.000000	99.033630	-160.3856
86.199997	99.039711	-160.8471
87.500000	99.044640	-161.2881
88.500000	99.047783	-161.6061
90.000000	99.051941	-162.0815
91.199997	99.056129	-162.4644
92.500000	99.061325	-162.8728
93.800003	99.064575	-163.2680
95.000000	99.065063	-163.6167
96.199997	99.063217	-163.9472
97.500000	99.058800	-164.2852
98.800003	99.055504	-164.6135
100.000000	99.057922	-164.9186
101.500000	99.068329	-165.3024
103.000000	99.079742	-165.6862
104.400002	99.086929	-166.0522
106.000000	99.091011	-166.4875
107.500000	99.092331	-166.9005
109.000000	99.092712	-167.2976
110.599998	99.092484	-167.6975
112.000000	99.091393	-168.0409
113.800003	99.089401	-168.5103
115.000000	99.090050	-168.8643
117.199997	99.100586	-169.6566
118.000000	99.106827	-169.9814
120.599998	99.108154	-170.7676
122.000000	99.088181	-170.8931
124.099998	99.051781	-171.0048
125.000000	99.038422	-171.0913
126.500000	99.019127	-171.2867
128.000000	99.002136	-171.5251
131.500000	98.968285	-172.1562
132.000000	98.963951	-172.2495
134.000000	98.946953	-172.6207
136.000000	98.929672	-172.9798
138.000000	98.911545	-173.3243
140.000000	98.892143	-173.6620
143.000000	98.859055	-174.1507
145.000000	98.834427	-174.4601
147.500000	98.802536	-174.8364
150.000000	98.770721	-175.2046
152.500000	98.738533	-175.5600
155.000000	98.704773	-175.8995
157.500000	98.668198	-176.2161
160.000000	98.627426	-176.4977
162.500000	98.580971	-176.7454
165.000000	98.529388	-176.9855
167.500000	98.475929	-177.1995
170.000000	98.423996	-177.3408
172.500000	98.377831	-177.3976
175.000000	98.342796	-177.3835
177.500000	98.322266	-177.3345
180.000000	98.314827	-177.3041
182.500000	98.315186	-177.3334
185.000000	98.318321	-177.4419
187.500000	98.319481	-177.6326
190.000000	98.315018	-177.8767
192.500000	98.304611	-178.1340
195.000000	98.288857	-178.3871
197.500000	98.267159	-178.6403
200.000000	98.240936	-178.8964
203.000000	98.207138	-179.1937
206.000000	98.171661	-179.4648
209.000000	98.133446	-179.7083
212.000000	98.091782	-179.9296
214.000000	98.062439	179.9338
218.000000	98.001167	179.6916
220.000000	97.969521	179.5891
224.000000	97.906456	179.4189
227.000000	97.861923	179.3095
230.000000	97.820190	179.1968
233.000000	97.779617	179.0589
236.000000	97.738823	178.8875
240.000000	97.686157	178.7006
243.000000	97.650955	178.6710
247.000000	97.607269	178.6916
250.000000	97.573387	178.6776
254.000000	97.524597	178.6199
258.000000	97.472359	178.5535
262.000000	97.418968	178.4933
265.000000	97.379204	178.4498
269.000000	97.326286	178.3937
272.000000	97.286163	178.3602
276.000000	97.232887	178.3360
280.000000	97.181580	178.3346
285.000000	97.120056	178.3558
290.000000	97.060394	178.3960
295.000000	97.003448	178.4508
300.000000	96.943848	178.4861
304.000000	96.889587	178.4795
307.000000	96.847076	178.4776
311.000000	96.791702	178.5081
315.000000	96.738831	178.5709
320.000000	96.675056	178.6628
325.000000	96.612183	178.7509
330.000000	96.550003	178.8398
335.000000	96.488907	178.9478
340.000000	96.428322	179.0868
345.000000	96.368149	179.2445
350.000000	96.308640	179.4040
355.000000	96.250023	179.5657
360.000000	96.191788	179.7333
365.000000	96.133484	179.9065
370.000000	96.075851	-179.9120
375.000000	96.019043	-179.7204
382.000000	95.940002	-179.4378
387.000000	95.883926	-179.2269
395.000000	95.796486	-178.8765
400.000000	95.742668	-178.6467
406.000000	95.677528	-178.3587
412.000000	95.611328	-178.0608
418.000000	95.545387	-177.7604
425.000000	95.472984	-177.4146
431.000000	95.415115	-177.1060
437.000000	95.356964	-176.7704
444.000000	95.285873	-176.3613
450.000000	95.225754	-176.0175
455.000000	95.177956	-175.7302
462.000000	95.112152	-175.3095
468.000000	95.055756	-174.9305
475.000000	94.990997	-174.4719
482.000000	94.927322	-174.0156
487.000000	94.882492	-173.6978
494.000000	94.820389	-173.2507
500.000000	94.767738	-172.8574
508.000000	94.699097	-172.3147
515.000000	94.641052	-171.8229
522.000000	94.584755	-171.3249
530.000000	94.521545	-170.7608
538.000000	94.458168	-170.1920
545.000000	94.402489	-169.6694
552.000000	94.347900	-169.1256
560.000000	94.287926	-168.4959
570.000000	94.215759	-167.7083
580.000000	94.145653	-166.9151
590.000000	94.077110	-166.1068
600.000000	94.010719	-165.2827
608.000000	93.960266	-164.6173
615.000000	93.917526	-164.0316
622.000000	93.875473	-163.4401
630.000000	93.828339	-162.7565
640.000000	93.770508	-161.8937
650.000000	93.713074	-161.0208
660.000000	93.658218	-160.1336
670.000000	93.608765	-159.2278
680.000000	93.562881	-158.3090
690.000000	93.518456	-157.3826
700.000000	93.475327	-156.4513
710.000000	93.433838	-155.5118
720.000000	93.394783	-154.5598
730.000000	93.359070	-153.5973
740.000000	93.326202	-152.6237
750.000000	93.295525	-151.6367
762.000000	93.262070	-150.4410
775.000000	93.230904	-149.1357
788.000000	93.205223	-147.8103
800.000000	93.186523	-146.5742
812.000000	93.172630	-145.3349
825.000000	93.162628	-143.9844
838.000000	93.157074	-142.6271
850.000000	93.154869	-141.3781
862.000000	93.156364	-140.1336
875.000000	93.164299	-138.7883
885.000000	93.175499	-137.7562
900.000000	93.201302	-136.1955
912.000000	93.229843	-134.9227
925.000000	93.267151	-133.5429
938.000000	93.309837	-132.1869
950.000000	93.354263	-130.9594
962.000000	93.404205	-129.7492
975.000000	93.464615	-128.4540
988.000000	93.531036	-127.1794
1000.000000	93.597229	-126.0251
1015.000000	93.686401	-124.6153
1030.000000	93.782486	-123.2525
1044.000000	93.877640	-122.0316
1060.000000	93.992165	-120.6956
1075.000000	94.103897	-119.4957
1090.000000	94.218201	-118.3412
1106.000000	94.342194	-117.1588
1120.000000	94.451752	-116.1695
1138.000000	94.592331	-114.9708
1150.000000	94.685303	-114.2212
1172.000000	94.853470	-112.9301
1180.000000	94.913567	-112.4823
1206.000000	95.105301	-111.1139
1220.000000	95.206139	-110.4350
1241.000000	95.350830	-109.4722
1250.000000	95.410133	-109.0756
1265.000000	95.506180	-108.4354
1280.000000	95.599091	-107.8164
1315.000000	95.800217	-106.4108
1320.000000	95.827019	-106.2124
1340.000000	95.929932	-105.4215
1360.000000	96.027245	-104.6314
1380.000000	96.120026	-103.8413
1400.000000	96.208374	-103.0516
1430.000000	96.333748	-101.8541
1450.000000	96.413452	-101.0490
1475.000000	96.509987	-100.0372
1500.000000	96.604782	-99.0092
1525.000000	96.699005	-97.9651
1550.000000	96.792053	-96.9140
1575.000000	96.884186	-95.8584
1600.000000	96.976044	-94.7932
1625.000000	97.067619	-93.7139
1650.000000	97.159325	-92.6202
1675.000000	97.251709	-91.5148
1700.000000	97.344902	-90.3991
1725.000000	97.439079	-89.2742
1750.000000	97.534401	-88.1403
1775.000000	97.631531	-86.9999
1800.000000	97.731346	-85.8578
1825.000000	97.834007	-84.7172
1850.000000	97.939354	-83.5757
1875.000000	98.047554	-82.4301
1900.000000	98.158890	-81.2829
1925.000000	98.273544	-80.1402
1950.000000	98.391617	-79.0055
1975.000000	98.513161	-77.8796
2000.000000	98.638298	-76.7629
2030.000000	98.793015	-75.4365
2060.000000	98.952255	-74.1276
2090.000000	99.115860	-72.8391
2120.000000	99.283745	-71.5728
2140.000000	99.398041	-70.7422
2180.000000	99.632561	-69.1151
2200.000000	99.752838	-68.3191
2240.000000	99.999268	-66.7662
2270.000000	100.189110	-65.6390
2300.000000	100.383163	-64.5472
2330.000000	100.581238	-63.4934
2360.000000	100.783104	-62.4793
2400.000000	101.057892	-61.1926
2430.000000	101.268112	-60.2796
2470.000000	101.553673	-59.1372
2500.000000	101.771492	-58.3410
2540.000000	102.066116	-57.3651
2580.000000	102.364464	-56.4939
2620.000000	102.664970	-55.7375
2650.000000	102.890823	-55.2511
2690.000000	103.191261	-54.7137
2720.000000	103.414909	-54.3945
2760.000000	103.708618	-54.0820
2800.000000	103.994431	-53.8980
2850.000000	104.336731	-53.8372
2900.000000	104.659668	-53.9378
2950.000000	104.962875	-54.1695
3000.000000	105.247971	-54.5159
3040.000000	105.463692	-54.8797
3070.000000	105.617615	-55.2102
3110.000000	105.809959	-55.7335
3150.000000	105.984001	-56.3464
3200.000000	106.170807	-57.2099
3250.000000	106.320724	-58.1304
3300.000000	106.434692	-59.0530
3350.000000	106.515991	-59.9352
3400.000000	106.568741	-60.7485
3450.000000	106.597061	-61.4750
3500.000000	106.604828	-62.1032
3550.000000	106.595810	-62.6262
3600.000000	106.573669	-63.0427
3650.000000	106.541801	-63.3564
3700.000000	106.503075	-63.5769
3750.000000	106.459541	-63.7200
3820.000000	106.391403	-63.8204
3870.000000	106.336632	-63.8323
3950.000000	106.236542	-63.7447
4000.000000	106.166351	-63.6138
4060.000000	106.075760	-63.3713
4120.000000	105.980484	-63.0353
4180.000000	105.882980	-62.6118
4250.000000	105.768776	-62.0190
4310.000000	105.671738	-61.4383
4370.000000	105.576035	-60.8029
4440.000000	105.465576	-60.0079
4500.000000	105.370628	-59.2900
4550.000000	105.290100	-58.6680
4620.000000	105.173340	-57.7553
4680.000000	105.068436	-56.9197
4750.000000	104.940750	-55.8550
4820.000000	104.810806	-54.6638
4870.000000	104.720474	-53.7263
4940.000000	104.604156	-52.3017
5000.000000	104.518768	-51.0046
5080.000000	104.428955	-49.2318
5150.000000	104.371132	-47.6984
5220.000000	104.327820	-46.2187
5300.000000	104.289169	-44.6107
5380.000000	104.255379	-43.0898
5450.000000	104.225975	-41.8194
5520.000000	104.194824	-40.5905
5600.000000	104.156212	-39.2191
5700.000000	104.104065	-37.5329
5800.000000	104.049362	-35.8669
5900.000000	103.993385	-34.2217
6000.000000	103.935837	-32.5997
6080.000000	103.888145	-31.3155
6150.000000	103.845245	-30.1968
6220.000000	103.801575	-29.0788
6300.000000	103.751358	-27.7986
6400.000000	103.689606	-26.1901
6500.000000	103.631355	-24.5710
6600.000000	103.579292	-22.9449
6700.000000	103.535889	-21.3195
6800.000000	103.503616	-19.7044
6900.000000	103.485237	-18.1122
7000.000000	103.484131	-16.5623
7100.000000	103.503662	-15.0884
7200.000000	103.545555	-13.7412
7300.000000	103.607788	-12.5765
7400.000000	103.685326	-11.6386
7500.000000	103.772163	-10.9575
7620.000000	103.880013	-10.5074
7750.000000	103.989517	-10.4952
7880.000000	104.079185	-10.9931
8000.000000	104.134186	-11.9201
8120.000000	104.150864	-13.3187
8250.000000	104.106430	-15.3810
8380.000000	103.969925	-17.9682
8500.000000	103.736496	-20.6912
8620.000000	103.381348	-23.5146
8750.000000	102.852760	-26.3659
8850.000000	102.351486	-28.2048
9000.000000	101.475784	-30.1258
9120.000000	100.701698	-30.8447
9250.000000	99.825874	-30.8124
9380.000000	98.942245	-30.0167
9500.000000	98.140770	-28.7004
9620.000000	97.366882	-26.9176
9750.000000	96.569054	-24.5525
9880.000000	95.817986	-21.8199
10000.000000	95.167419	-19.0340
10150.000000	94.412857	-15.2697
10300.000000	93.724594	-11.2614
10440.000000	93.141617	-7.3581
10600.000000	92.542519	-2.7657
10750.000000	92.042412	1.6238
10900.000000	91.599380	6.0611
11060.000000	91.187386	10.8142
11200.000000	90.876305	14.9656
11380.000000	90.541626	20.2614
11500.000000	90.358139	23.7490
11720.000000	90.101746	30.0099
11800.000000	90.033760	32.2337
12060.000000	89.904572	39.2265
12200.000000	89.892616	42.8206
12410.000000	89.950996	47.9423
12500.000000	90.005226	50.0247
12650.000000	90.137314	53.3228
12800.000000	90.324875	56.3694
13150.000000	90.984970	62.1711
13200.000000	91.103607	62.8209
13400.000000	91.638626	64.9238
13600.000000	92.277878	66.1561
13800.000000	93.029236	66.3416
14000.000000	93.890778	65.2273
14300.000000	95.344101	60.3551
14500.000000	96.338875	54.3227
14750.000000	97.444221	42.9588
15000.000000	98.196999	27.3280
15250.000000	98.436844	8.6204
15500.000000	98.126556	-11.0237
15750.000000	97.368622	-29.7030
16000.000000	96.356339	-46.6837
16250.000000	95.299316	-62.3165
16500.000000	94.367752	-77.4518
16750.000000	93.671051	-93.0180
17000.000000	93.260376	-109.9061
17250.000000	93.134094	-129.0225
17500.000000	93.232231	-151.3678
17750.000000	93.425369	-178.0065
18000.000000	93.522949	150.2130
18250.000000	93.314575	113.1781
18500.000000	92.632217	71.8477
18750.000000	91.399910	27.8467
19000.000000	89.639137	-17.3948
19250.000000	87.433952	-62.7505
19500.000000	84.901306	-106.0932
19750.000000	82.256355	-142.5105
